Folder: LiYbSe2_HP/Figure1_XRD (part 2)

File: 068.xy
# == pyFAI calibration ==
# Distance Sample to Detector: 0.115075 m
# PONI: 5.477e-03, 4.716e-03 m
# Rotations: 0.004686 0.005536 0.000000 rad
#
# == Fit2d calibration ==
# Distance Sample-beamCenter: 115.078 mm
# Center: x=55.690, y=81.516 pix
# Tilt: 0.416 deg  TiltPlanRot: 130.247 deg
#
# Detector Detector	 Spline= None	 PixelSize= 7.500e-05, 7.500e-05 m
#    Detector has a mask: False
#    Detector has a dark current: False
#    detector has a flat field: False
#
# Wavelength: 4.833e-11 m
# Mask applied: None
# Dark current applied: None
# Flat field applied: None
# Polarization factor: None
# Normalization factor: None
#
# 2th_deg	 I
1.13121  67.9082
1.24914  147.717
1.36706  188.529
1.48499  208.47
1.60291  224.027
1.72084  236.338
1.83877  243.46
1.95669  252.24
2.07462  264.087
2.19255  273.829
2.31047  277.339
2.4284  283.866
2.54633  282.549
2.66425  281.533
2.78218  280.056
2.9001  276.512
3.01803  275.086
3.13596  274.569
3.25388  273.399
3.37181  273.126
3.48974  269.86
3.60766  269.083
3.72559  265.408
3.84352  274.833
3.96144  267.204
4.07937  259.441
4.19729  255.216
4.31522  250.813
4.43315  246.205
4.55107  243.134
4.669  240.682
4.78693  239.507
4.90485  236.749
5.02278  235.752
5.14071  233.828
5.25863  231.454
5.37656  230.774
5.49448  229.264
5.61241  228.787
5.73034  229.99
5.84826  228.142
5.96619  228.504
6.08412  227.983
6.20204  227.926
6.31997  228.512
6.43789  228.686
6.55582  231.257
6.67375  230.459
6.79167  230.918
6.9096  232.431
7.02753  233.96
7.14545  234.888
7.26338  234.568
7.38131  236.223
7.49923  238.001
7.61716  239.389
7.73508  240.322
7.85301  240.94
7.97094  243.482
8.08886  248.038
8.20679  253.672
8.32472  274.345
8.44264  311.494
8.56057  358.105
8.6785  285.365
8.79642  275.999
8.91435  276.951
9.03227  283.871
9.1502  285.841
9.26813  292.34
9.38605  296.113
9.50398  300.72
9.62191  304.444
9.73983  304.003
9.85776  308.531
9.97568  329.541
10.0936  418.197
10.2115  368.936
10.3295  332.506
10.4474  319.906
10.5653  297.08
10.6832  285.914
10.8012  283.045
10.9191  282.357
11.037  281.234
11.1549  282.692
11.2729  285.792
11.3908  290.976
11.5087  289.32
11.6267  315.657
11.7446  369.938
11.8625  294.323
11.9804  284.239
12.0984  283.989
12.2163  285.887
12.3342  285.905
12.4521  290.591
12.5701  295.356
12.688  298.893
12.8059  305.448
12.9238  303.579
13.0418  304.304
13.1597  321.008
13.2776  397.797
13.3955  351.347
13.5135  316.067
13.6314  317.676
13.7493  330.888
13.8673  337.923
13.9852  324.093
14.1031  319.958
14.221  324.97
14.339  336.696
14.4569  405.194
14.5748  370.653
14.6927  351.624
14.8107  334.209
14.9286  332.037
15.0465  343.901
15.1644  325.576
15.2824  321.962
15.4003  321.511
15.5182  322.558
15.6361  326.142
15.7541  320.596
15.872  319.112
15.9899  319.404
16.1079  319.895
16.2258  321.058
16.3437  326.589
16.4616  326.808
16.5796  326.109
16.6975  331.498
16.8154  346.134
16.9333  329.328
17.0513  325.66
17.1692  327.092
17.2871  329.541
17.405  328.71
17.523  330.998
17.6409  339.84
17.7588  351.547
17.8767  343.196
17.9947  333.493
18.1126  331.064
18.2305  330.444
18.3485  334.015
18.4664  335.813
18.5843  327.7
18.7022  324.73
18.8202  324.509
18.9381  324.271
19.056  324.127
19.1739  323.501
19.2919  323.615
19.4098  324.216
19.5277  323.045
19.6456  323.675
19.7636  326.502
19.8815  329.527
19.9994  329.505
20.1173  334.261
20.2353  353.188
20.3532  378.18
20.4711  343.168
20.5891  328.09
20.707  326.725
20.8249  323.372
20.9428  323.006
21.0608  324.088
21.1787  327.22
21.2966  328.739
21.4145  328.773
21.5325  327.506
21.6504  325.057
21.7683  326.687
21.8862  327.352
22.0042  332.927
22.1221  337.584
22.24  349.338
22.358  340.973
22.4759  339.359
22.5938  337.844
22.7117  341.576
22.8297  349.699
22.9476  374.854
23.0655  358.296
23.1834  348.804
23.3014  344.379
23.4193  346.395
23.5372  348.259
23.6551  341.152
23.7731  338.425
23.891  341.803
24.0089  348.07
24.1268  341.308
24.2448  347.521
24.3627  359.774
24.4806  348.662
24.5986  335.619
24.7165  334.496
24.8344  337.633
24.9523  342.654
25.0703  353.578
25.1882  363.924
25.3061  354.859
25.424  352.318
25.542  346.057
25.6599  340.736
25.7778  339.085
25.8957  335.281
26.0137  337.158
26.1316  336.231
26.2495  334.968
26.3674  335.68
26.4854  339.033
26.6033  346.088
26.7212  333.838
26.8392  332.798
26.9571  331.561
27.075  337.349
27.1929  333.505
27.3109  331.174
27.4288  330.487
27.5467  328.212
27.6646  328.587
27.7826  329.168
27.9005  327.367
28.0184  326.474
28.1363  323.962
28.2543  323.344
28.3722  321.322
28.4901  320.223
28.608  320.281
28.726  320.331
28.8439  319.236
28.9618  320.14
29.0798  322.758
29.1977  324.8
29.3156  320.744
29.4335  319.725
29.5515  316.081
29.6694  315.314
29.7873  311.732
29.9052  303.484
30.0232  293.523
30.1411  279.269
30.259  256.353
30.3769  238.155
30.4949  226.262
30.6128  213.878
30.7307  200.364
30.8486  184.252
30.9666  170.784
31.0845  158.333
31.2024  144.694
31.3204  129.643
31.4383  116.773
31.5562  104.715
31.6741  90.1393
31.7921  82.6506
31.91  74.1802
32.0279  61.5882
32.0869  40.7935

File: 071.xy
# == pyFAI calibration ==
# Distance Sample to Detector: 0.115075 m
# PONI: 5.477e-03, 4.716e-03 m
# Rotations: 0.004686 0.005536 0.000000 rad
#
# == Fit2d calibration ==
# Distance Sample-beamCenter: 115.078 mm
# Center: x=55.690, y=81.516 pix
# Tilt: 0.416 deg  TiltPlanRot: 130.247 deg
#
# Detector Detector	 Spline= None	 PixelSize= 7.500e-05, 7.500e-05 m
#    Detector has a mask: False
#    Detector has a dark current: False
#    detector has a flat field: False
#
# Wavelength: 4.833e-11 m
# Mask applied: None
# Dark current applied: None
# Flat field applied: None
# Polarization factor: None
# Normalization factor: None
#
# 2th_deg	 I
1.13121  58.7487
1.24914  151.986
1.36706  194.485
1.48499  216.69
1.60291  228.126
1.72084  242.67
1.83877  249.361
1.95669  259.927
2.07462  272.958
2.19255  281.491
2.31047  287.666
2.4284  291.772
2.54633  291.064
2.66425  289.84
2.78218  288.02
2.9001  286.528
3.01803  283.409
3.13596  280.271
3.25388  280.694
3.37181  280.55
3.48974  279.237
3.60766  275.832
3.72559  270.559
3.84352  280.018
3.96144  275.622
4.07937  266.997
4.19729  261.942
4.31522  257.33
4.43315  252.686
4.55107  249.605
4.669  248.704
4.78693  245.269
4.90485  244.279
5.02278  241.861
5.14071  240.411
5.25863  237.97
5.37656  235.795
5.49448  235.732
5.61241  235.022
5.73034  237.639
5.84826  235.994
5.96619  233.897
6.08412  233.934
6.20204  233.136
6.31997  234.481
6.43789  235.243
6.55582  237.321
6.67375  236.622
6.79167  238.498
6.9096  238.202
7.02753  239.7
7.14545  240.855
7.26338  241.382
7.38131  241.488
7.49923  244.436
7.61716  245.475
7.73508  247.144
7.85301  249.149
7.97094  252.134
8.08886  255.849
8.20679  261.485
8.32472  281.409
8.44264  319.738
8.56057  372.823
8.6785  295.358
8.79642  285.182
8.91435  283.166
9.03227  292.277
9.1502  295.42
9.26813  302.62
9.38605  306.207
9.50398  311.53
9.62191  313.35
9.73983  312.671
9.85776  315.128
9.97568  336.256
10.0936  448.912
10.2115  383.423
10.3295  349.575
10.4474  326.208
10.5653  302.478
10.6832  294.368
10.8012  290.601
10.9191  288.322
11.037  288.281
11.1549  291.396
11.2729  293.179
11.3908  299.149
11.5087  299.505
11.6267  326.38
11.7446  385.864
11.8625  303.698
11.9804  292.601
12.0984  292.354
12.2163  293.708
12.3342  293.529
12.4521  299.343
12.5701  302.543
12.688  307.194
12.8059  312.858
12.9238  309.652
13.0418  312.621
13.1597  331.178
13.2776  426.123
13.3955  378.407
13.5135  321.396
13.6314  325.07
13.7493  341.22
13.8673  352.032
13.9852  333.851
14.1031  329.035
14.221  333.648
14.339  344.669
14.4569  416.931
14.5748  388.347
14.6927  365.266
14.8107  347.667
14.9286  342.169
15.0465  359.245
15.1644  336.863
15.2824  329.819
15.4003  332.004
15.5182  332.337
15.6361  333.942
15.7541  332.076
15.872  327.513
15.9899  328.026
16.1079  328.955
16.2258  331.6
16.3437  337.913
16.4616  337.627
16.5796  335.731
16.6975  342.206
16.8154  357.304
16.9333  341.409
17.0513  335.538
17.1692  335.602
17.2871  338.792
17.405  335.664
17.523  339.652
17.6409  345.641
17.7588  361.776
17.8767  356.739
17.9947  343.981
18.1126  338.845
18.2305  341.618
18.3485  343.541
18.4664  344.291
18.5843  336.544
18.7022  334.291
18.8202  332.277
18.9381  332.482
19.056  331.775
19.1739  332.312
19.2919  332.313
19.4098  332.572
19.5277  332.784
19.6456  331.568
19.7636  333.737
19.8815  336.873
19.9994  338.666
20.1173  343.389
20.2353  364.63
20.3532  390.381
20.4711  353.523
20.5891  337.897
20.707  335.582
20.8249  333.963
20.9428  332.539
21.0608  331.844
21.1787  335.141
21.2966  336.179
21.4145  336.109
21.5325  335.99
21.6504  333.661
21.7683  335.261
21.8862  337.13
22.0042  340.621
22.1221  348.321
22.24  365.07
22.358  355.174
22.4759  349.562
22.5938  348.923
22.7117  349.714
22.8297  357.075
22.9476  381.887
23.0655  372.759
23.1834  359.817
23.3014  355.088
23.4193  357.676
23.5372  360.099
23.6551  352.372
23.7731  347.808
23.891  353.969
24.0089  360.569
24.1268  353.779
24.2448  356.322
24.3627  372.565
24.4806  358.804
24.5986  346.925
24.7165  343.929
24.8344  343.992
24.9523  350.954
25.0703  363.114
25.1882  378.652
25.3061  367.325
25.424  360.825
25.542  357.481
25.6599  349.728
25.7778  349.232
25.8957  344.467
26.0137  344.484
26.1316  345.936
26.2495  343.855
26.3674  343.239
26.4854  345.76
26.6033  349.549
26.7212  342.089
26.8392  342.916
26.9571  340.61
27.075  346.816
27.1929  343.763
27.3109  340.261
27.4288  339.546
27.5467  335.578
27.6646  337.778
27.7826  338.969
27.9005  338.086
28.0184  336.166
28.1363  333.833
28.2543  331.401
28.3722  329.495
28.4901  329.223
28.608  327.578
28.726  328.581
28.8439  327.862
28.9618  329.676
29.0798  328.715
29.1977  336.373
29.3156  331.457
29.4335  328.238
29.5515  328.959
29.6694  324.323
29.7873  319.208
29.9052  311.619
30.0232  299.601
30.1411  284.039
30.259  259.877
30.3769  242.927
30.4949  231.769
30.6128  217.934
30.7307  203.726
30.8486  188.131
30.9666  173.656
31.0845  159.245
31.2024  144.958
31.3204  131.162
31.4383  117.984
31.5562  105.692
31.6741  92.2834
31.7921  80.5178
31.91  64.4161
32.0279  47.7308
32.0869  50.8665

File: 073.xy
# == pyFAI calibration ==
# Distance Sample to Detector: 0.115075 m
# PONI: 5.477e-03, 4.716e-03 m
# Rotations: 0.004686 0.005536 0.000000 rad
#
# == Fit2d calibration ==
# Distance Sample-beamCenter: 115.078 mm
# Center: x=55.690, y=81.516 pix
# Tilt: 0.416 deg  TiltPlanRot: 130.247 deg
#
# Detector Detector	 Spline= None	 PixelSize= 7.500e-05, 7.500e-05 m
#    Detector has a mask: False
#    Detector has a dark current: False
#    detector has a flat field: False
#
# Wavelength: 4.833e-11 m
# Mask applied: None
# Dark current applied: None
# Flat field applied: None
# Polarization factor: None
# Normalization factor: None
#
# 2th_deg	 I
1.13121  54.5264
1.24914  150.03
1.36706  189.261
1.48499  213.808
1.60291  225.23
1.72084  239.774
1.83877  247.387
1.95669  256.42
2.07462  269.328
2.19255  278.684
2.31047  283.702
2.4284  287.668
2.54633  290.249
2.66425  287.427
2.78218  283.852
2.9001  284.477
3.01803  280.091
3.13596  280.403
3.25388  278.506
3.37181  278.089
3.48974  274.374
3.60766  272.902
3.72559  268.505
3.84352  278.922
3.96144  273.653
4.07937  264.522
4.19729  260.456
4.31522  256.263
4.43315  251.148
4.55107  247.922
4.669  245.12
4.78693  244.379
4.90485  242.199
5.02278  239.71
5.14071  237.803
5.25863  237.477
5.37656  233.516
5.49448  234.705
5.61241  235.746
5.73034  235.245
5.84826  234.184
5.96619  231.459
6.08412  231.952
6.20204  232.451
6.31997  232.718
6.43789  233.927
6.55582  235.45
6.67375  233.952
6.79167  235.626
6.9096  236.509
7.02753  237.527
7.14545  239.85
7.26338  239.717
7.38131  240.311
7.49923  241.155
7.61716  243.757
7.73508  244.326
7.85301  246.785
7.97094  249.125
8.08886  253.775
8.20679  258.57
8.32472  275.518
8.44264  310.045
8.56057  373.952
8.6785  299.436
8.79642  284.103
8.91435  281.945
9.03227  288.835
9.1502  291.822
9.26813  298.912
9.38605  302.633
9.50398  308.796
9.62191  312.196
9.73983  309.56
9.85776  311.874
9.97568  325.841
10.0936  442.334
10.2115  379.285
10.3295  351.063
10.4474  327.186
10.5653  301.305
10.6832  292.144
10.8012  287.775
10.9191  286.042
11.037  286.532
11.1549  286.305
11.2729  290.756
11.3908  296.724
11.5087  296.729
11.6267  323.217
11.7446  382.855
11.8625  300.244
11.9804  290.553
12.0984  290.17
12.2163  290.242
12.3342  292.481
12.4521  296.358
12.5701  300.03
12.688  303.415
12.8059  308.391
12.9238  307.069
13.0418  309.68
13.1597  326.755
13.2776  412.493
13.3955  390.691
13.5135  320.805
13.6314  322.875
13.7493  336.115
13.8673  352.033
13.9852  333.47
14.1031  327.181
14.221  329.401
14.339  337.07
14.4569  402.106
14.5748  392.638
14.6927  362.413
14.8107  348.035
14.9286  338.604
15.0465  354.254
15.1644  337.19
15.2824  328.744
15.4003  328.268
15.5182  328.954
15.6361  331.932
15.7541  330.003
15.872  325.967
15.9899  325.238
16.1079  326.297
16.2258  328.49
16.3437  333.984
16.4616  333.405
16.5796  332.713
16.6975  335.925
16.8154  351.897
16.9333  343.321
17.0513  333.466
17.1692  333.78
17.2871  336.497
17.405  332.818
17.523  334.814
17.6409  341.791
17.7588  355.253
17.8767  353.523
17.9947  342.564
18.1126  335.875
18.2305  337.915
18.3485  338.056
18.4664  342.574
18.5843  336.607
18.7022  332.352
18.8202  329.689
18.9381  331.076
19.056  328.623
19.1739  329.218
19.2919  329.531
19.4098  330.692
19.5277  329.838
19.6456  328.997
19.7636  330.603
19.8815  332.88
19.9994  337.179
20.1173  340.679
20.2353  360.169
20.3532  390.778
20.4711  351.411
20.5891  336.82
20.707  332.776
20.8249  330.217
20.9428  329.637
21.0608  329.117
21.1787  330.361
21.2966  331.873
21.4145  333.138
21.5325  333.305
21.6504  330.255
21.7683  329.495
21.8862  332.383
22.0042  338.34
22.1221  344.782
22.24  360.82
22.358  356.356
22.4759  345.537
22.5938  345.792
22.7117  346.855
22.8297  350.969
22.9476  374.072
23.0655  372.777
23.1834  360.966
23.3014  352.603
23.4193  354.434
23.5372  356.484
23.6551  350.196
23.7731  347.153
23.891  350.676
24.0089  356.291
24.1268  352.205
24.2448  354.918
24.3627  369.225
24.4806  356.205
24.5986  344.027
24.7165  340.796
24.8344  343.159
24.9523  345.967
25.0703  356.56
25.1882  372.58
25.3061  366.347
25.424  358.387
25.542  356.557
25.6599  349.09
25.7778  344.519
25.8957  342.318
26.0137  340.396
26.1316  340.421
26.2495  340.226
26.3674  340.138
26.4854  343.976
26.6033  343.957
26.7212  338.334
26.8392  336.693
26.9571  338.028
27.075  338.249
27.1929  343.803
27.3109  338.869
27.4288  336.324
27.5467  333.142
27.6646  334.863
27.7826  332.441
27.9005  336.586
28.0184  334.719
28.1363  333.128
28.2543  327.235
28.3722  326.854
28.4901  325.251
28.608  324.73
28.726  325.937
28.8439  325.979
28.9618  325.557
29.0798  324.459
29.1977  330.945
29.3156  330.08
29.4335  326.214
29.5515  324.015
29.6694  322.166
29.7873  315.694
29.9052  308.745
30.0232  296.177
30.1411  282.744
30.259  255.642
30.3769  240.269
30.4949  229.473
30.6128  216.864
30.7307  200.673
30.8486  187.347
30.9666  171.926
31.0845  158.324
31.2024  144.812
31.3204  130.447
31.4383  116.877
31.5562  103.275
31.6741  91.7201
31.7921  79.8685
31.91  69.7842
32.0279  55.4294
32.0869  40.7524

File: 085.xy
# == pyFAI calibration ==
# Distance Sample to Detector: 0.115075 m
# PONI: 5.477e-03, 4.716e-03 m
# Rotations: 0.004686 0.005536 0.000000 rad
#
# == Fit2d calibration ==
# Distance Sample-beamCenter: 115.078 mm
# Center: x=55.690, y=81.516 pix
# Tilt: 0.416 deg  TiltPlanRot: 130.247 deg
#
# Detector Detector	 Spline= None	 PixelSize= 7.500e-05, 7.500e-05 m
#    Detector has a mask: False
#    Detector has a dark current: False
#    detector has a flat field: False
#
# Wavelength: 4.833e-11 m
# Mask applied: None
# Dark current applied: None
# Flat field applied: None
# Polarization factor: None
# Normalization factor: None
#
# 2th_deg	 I
1.13121  73.2381
1.24914  143.579
1.36706  179.913
1.48499  200.376
1.60291  214.697
1.72084  224.671
1.83877  234.018
1.95669  241.018
2.07462  254.131
2.19255  264.379
2.31047  267.337
2.4284  272.801
2.54633  273.266
2.66425  272.762
2.78218  269.011
2.9001  268.305
3.01803  264.66
3.13596  262.986
3.25388  262.566
3.37181  263.442
3.48974  259.207
3.60766  256.622
3.72559  254.223
3.84352  262.238
3.96144  258.482
4.07937  252.637
4.19729  244.171
4.31522  242.035
4.43315  238.244
4.55107  234.643
4.669  231.77
4.78693  231.011
4.90485  228.54
5.02278  227.103
5.14071  227.4
5.25863  223.886
5.37656  222.137
5.49448  220.725
5.61241  220.065
5.73034  220.88
5.84826  223.119
5.96619  220.413
6.08412  219.475
6.20204  220.196
6.31997  220.586
6.43789  221.773
6.55582  222.61
6.67375  222.961
6.79167  222.528
6.9096  224.073
7.02753  224.216
7.14545  227.041
7.26338  227.227
7.38131  227.406
7.49923  229.867
7.61716  230.692
7.73508  230.585
7.85301  233.392
7.97094  236.366
8.08886  238.874
8.20679  242.744
8.32472  250.838
8.44264  272.515
8.56057  335.965
8.6785  318.638
8.79642  281.389
8.91435  268.314
9.03227  272.445
9.1502  274.23
9.26813  283.233
9.38605  286.902
9.50398  292.077
9.62191  292.076
9.73983  292.46
9.85776  291.917
9.97568  288.691
10.0936  326.402
10.2115  417.77
10.3295  360.365
10.4474  347.813
10.5653  298.752
10.6832  281.439
10.8012  276.506
10.9191  272.906
11.037  272.482
11.1549  272.476
11.2729  274.623
11.3908  280.049
11.5087  285.063
11.6267  308.72
11.7446  370.358
11.8625  290.956
11.9804  276.048
12.0984  274.696
12.2163  275.336
12.3342  276.564
12.4521  278.938
12.5701  282.116
12.688  283.706
12.8059  288.44
12.9238  295.903
13.0418  301.945
13.1597  310.529
13.2776  375.894
13.3955  368.405
13.5135  302.53
13.6314  299.81
13.7493  311.088
13.8673  328.484
13.9852  329.453
14.1031  317.094
14.221  312.278
14.339  318.782
14.4569  332.572
14.5748  390.677
14.6927  358.939
14.8107  337.684
14.9286  333.722
15.0465  328.271
15.1644  334
15.2824  316.587
15.4003  311.866
15.5182  310.844
15.6361  313.151
15.7541  310.855
15.872  312.844
15.9899  311.176
16.1079  310.826
16.2258  311.752
16.3437  316.063
16.4616  315.742
16.5796  315.362
16.6975  314.922
16.8154  319.453
16.9333  331.268
17.0513  321.561
17.1692  316.696
17.2871  318.576
17.405  316.27
17.523  315.184
17.6409  317.535
17.7588  323.036
17.8767  334.559
17.9947  333.385
18.1126  328.906
18.2305  321.264
18.3485  319.242
18.4664  320.682
18.5843  324.061
18.7022  318.111
18.8202  315.599
18.9381  312.614
19.056  311.296
19.1739  313.162
19.2919  311.143
19.4098  310.796
19.5277  312.791
19.6456  312.656
19.7636  311.422
19.8815  313.656
19.9994  315.426
20.1173  322.693
20.2353  337.158
20.3532  374.045
20.4711  344.579
20.5891  320.949
20.707  318.826
20.8249  315.104
20.9428  314.408
21.0608  312.325
21.1787  311.36
21.2966  313.719
21.4145  315.618
21.5325  318.68
21.6504  316.334
21.7683  315.11
21.8862  315.887
22.0042  317.077
22.1221  318.747
22.24  325.656
22.358  338.923
22.4759  337.297
22.5938  324.769
22.7117  325.042
22.8297  327.381
22.9476  332.517
23.0655  352.353
23.1834  364.107
23.3014  341.366
23.4193  338.426
23.5372  340.837
23.6551  336.584
23.7731  333.655
23.891  331.93
24.0089  338.304
24.1268  335.166
24.2448  334.306
24.3627  346.82
24.4806  340.573
24.5986  327.615
24.7165  322.732
24.8344  321.535
24.9523  322.711
25.0703  324.889
25.1882  333.576
25.3061  346.628
25.424  348.193
25.542  340.769
25.6599  337.271
25.7778  329.804
25.8957  326.741
26.0137  325.606
26.1316  323.149
26.2495  323.558
26.3674  320.713
26.4854  321.809
26.6033  321.704
26.7212  323.077
26.8392  323.704
26.9571  322.782
27.075  329.361
27.1929  313.244
27.3109  316.639
27.4288  323.474
27.5467  321.502
27.6646  319.884
27.7826  316.93
27.9005  316.937
28.0184  317.011
28.1363  316.224
28.2543  315.756
28.3722  313.265
28.4901  310.403
28.608  309.668
28.726  308.787
28.8439  309.315
28.9618  309.791
29.0798  308.663
29.1977  308.575
29.3156  310.914
29.4335  314.526
29.5515  308.183
29.6694  306.71
29.7873  303.238
29.9052  294.488
30.0232  283.575
30.1411  266.593
30.259  244.18
30.3769  230.257
30.4949  217.768
30.6128  205.782
30.7307  191.498
30.8486  177.585
30.9666  164.829
31.0845  149.529
31.2024  138.195
31.3204  124.709
31.4383  111.97
31.5562  100.519
31.6741  86.7834
31.7921  78.1121
31.91  64.8866
32.0279  49.2705
32.0869  46.0396

File: 091.xy
# == pyFAI calibration ==
# Distance Sample to Detector: 0.115075 m
# PONI: 5.477e-03, 4.716e-03 m
# Rotations: 0.004686 0.005536 0.000000 rad
#
# == Fit2d calibration ==
# Distance Sample-beamCenter: 115.078 mm
# Center: x=55.690, y=81.516 pix
# Tilt: 0.416 deg  TiltPlanRot: 130.247 deg
#
# Detector Detector	 Spline= None	 PixelSize= 7.500e-05, 7.500e-05 m
#    Detector has a mask: False
#    Detector has a dark current: False
#    detector has a flat field: False
#
# Wavelength: 4.833e-11 m
# Mask applied: None
# Dark current applied: None
# Flat field applied: None
# Polarization factor: None
# Normalization factor: None
#
# 2th_deg	 I
1.13121  57.4683
1.24914  139.07
1.36706  178.833
1.48499  203.808
1.60291  216.641
1.72084  229.431
1.83877  235.86
1.95669  244.081
2.07462  257.384
2.19255  263.909
2.31047  270.076
2.4284  274.67
2.54633  275.686
2.66425  274.328
2.78218  271.815
2.9001  271.528
3.01803  267.897
3.13596  267.17
3.25388  265.37
3.37181  264.521
3.48974  262.935
3.60766  260.931
3.72559  255.117
3.84352  264.508
3.96144  267.776
4.07937  256.012
4.19729  249.338
4.31522  245.773
4.43315  242.146
4.55107  238.416
4.669  236.755
4.78693  234.539
4.90485  233.181
5.02278  229.54
5.14071  230.579
5.25863  227.212
5.37656  225.832
5.49448  225.798
5.61241  225.168
5.73034  224.475
5.84826  226.684
5.96619  223.37
6.08412  223.319
6.20204  222.651
6.31997  223.367
6.43789  224.944
6.55582  226.001
6.67375  225.732
6.79167  226.105
6.9096  226.801
7.02753  228.825
7.14545  230.481
7.26338  230.209
7.38131  231.492
7.49923  233.699
7.61716  234.542
7.73508  235.426
7.85301  236.63
7.97094  240.507
8.08886  243.035
8.20679  245.863
8.32472  246.955
8.44264  260.039
8.56057  297.074
8.6785  364.422
8.79642  299.526
8.91435  277.111
9.03227  278.046
9.1502  277.859
9.26813  283.452
9.38605  290.072
9.50398  292.413
9.62191  295.799
9.73983  295.431
9.85776  294.578
9.97568  295.468
10.0936  299.121
10.2115  345.643
10.3295  424.296
10.4474  363.107
10.5653  315.529
10.6832  298.491
10.8012  285.957
10.9191  281.381
11.037  277.701
11.1549  277.81
11.2729  278.036
11.3908  281.798
11.5087  288.992
11.6267  316.167
11.7446  385.782
11.8625  303.501
11.9804  281.205
12.0984  280.221
12.2163  280.913
12.3342  280.739
12.4521  283.788
12.5701  286.328
12.688  287.923
12.8059  290.938
12.9238  295.327
13.0418  304.363
13.1597  321.47
13.2776  386.341
13.3955  391.36
13.5135  319.517
13.6314  318.133
13.7493  311.893
13.8673  323.765
13.9852  331.362
14.1031  315.369
14.221  325.782
14.339  320.81
14.4569  323.305
14.5748  343.848
14.6927  393.954
14.8107  359.666
14.9286  335.777
15.0465  334.93
15.1644  341.347
15.2824  337.834
15.4003  322.101
15.5182  317.372
15.6361  316.341
15.7541  316.173
15.872  317.284
15.9899  318.31
16.1079  319.119
16.2258  321.884
16.3437  321.386
16.4616  320.306
16.5796  319.537
16.6975  319.809
16.8154  320.973
16.9333  325.64
17.0513  333.253
17.1692  325.91
17.2871  322.817
17.405  323.631
17.523  320.437
17.6409  322.706
17.7588  322.084
17.8767  326.179
17.9947  335.122
18.1126  337.16
18.2305  333.469
18.3485  330.805
18.4664  326.888
18.5843  327.83
18.7022  328.248
18.8202  325.798
18.9381  320.739
19.056  317.055
19.1739  319.729
19.2919  318.184
19.4098  317.706
19.5277  317.122
19.6456  317.607
19.7636  318.073
19.8815  318.809
19.9994  319.056
20.1173  324.478
20.2353  341.392
20.3532  377.888
20.4711  355.712
20.5891  332.935
20.707  329.49
20.8249  324.656
20.9428  323.315
21.0608  319.995
21.1787  318.527
21.2966  318.864
21.4145  318.306
21.5325  319.887
21.6504  323.509
21.7683  324.07
21.8862  321.866
22.0042  322.723
22.1221  321.248
22.24  325.768
22.358  332.224
22.4759  338.823
22.5938  342.096
22.7117  334.563
22.8297  330.183
22.9476  330.604
23.0655  337.003
23.1834  342.414
23.3014  366.462
23.4193  358.629
23.5372  354.592
23.6551  343.326
23.7731  341.882
23.891  344.614
24.0089  348.057
24.1268  345.046
24.2448  341.329
24.3627  352.073
24.4806  351.958
24.5986  335.103
24.7165  329.183
24.8344  327.862
24.9523  326.781
25.0703  326.755
25.1882  328.708
25.3061  333.116
25.424  341.296
25.542  348.266
25.6599  349.784
25.7778  343.231
25.8957  336.776
26.0137  332.76
26.1316  329.565
26.2495  328.796
26.3674  332.055
26.4854  348.073
26.6033  331.05
26.7212  327.126
26.8392  328.419
26.9571  324.976
27.075  324.311
27.1929  323.518
27.3109  325.842
27.4288  329.237
27.5467  325.146
27.6646  354.229
27.7826  337.289
27.9005  329.132
28.0184  323.705
28.1363  320.865
28.2543  319.918
28.3722  320.589
28.4901  318.115
28.608  317.244
28.726  314.668
28.8439  313.437
28.9618  313.467
29.0798  312.546
29.1977  312.233
29.3156  312.069
29.4335  311.543
29.5515  315.425
29.6694  313.296
29.7873  307.951
29.9052  300.737
30.0232  287.446
30.1411  273.353
30.259  249.343
30.3769  232.611
30.4949  221.452
30.6128  208.861
30.7307  194.468
30.8486  180.97
30.9666  166.637
31.0845  153.05
31.2024  137.909
31.3204  126.069
31.4383  113.534
31.5562  99.2171
31.6741  89.1502
31.7921  78.7583
31.91  66.2889
32.0279  60.0485
32.0869  45.2625