Folder: LiYbSe2_HP/Figure1_XRD

Note: README.md
# LiYbSe2_HP
Raw data of various high-pressure measurements on LiYbSe2.

File: 040.xy
# == pyFAI calibration ==
# Distance Sample to Detector: 0.115075 m
# PONI: 5.477e-03, 4.716e-03 m
# Rotations: 0.004686 0.005536 0.000000 rad
#
# == Fit2d calibration ==
# Distance Sample-beamCenter: 115.078 mm
# Center: x=55.690, y=81.516 pix
# Tilt: 0.416 deg  TiltPlanRot: 130.247 deg
#
# Detector Detector	 Spline= None	 PixelSize= 7.500e-05, 7.500e-05 m
#    Detector has a mask: False
#    Detector has a dark current: False
#    detector has a flat field: False
#
# Wavelength: 4.833e-11 m
# Mask applied: None
# Dark current applied: None
# Flat field applied: None
# Polarization factor: None
# Normalization factor: None
#
# 2th_deg	 I
1.13121  36.5196
1.24914  82.0201
1.36706  103.994
1.48499  113.223
1.60291  118.384
1.72084  126.418
1.83877  131.841
1.95669  133.692
2.07462  139.622
2.19255  144.48
2.31047  145.927
2.4284  148.486
2.54633  148.187
2.66425  148.342
2.78218  147.332
2.9001  146.018
3.01803  143.293
3.13596  143.134
3.25388  143.609
3.37181  143.023
3.48974  141.206
3.60766  135.484
3.72559  144.344
3.84352  141.546
3.96144  136.209
4.07937  133.769
4.19729  130.542
4.31522  128.984
4.43315  126.741
4.55107  125.261
4.669  124.808
4.78693  123.569
4.90485  121.94
5.02278  120.169
5.14071  119.116
5.25863  118.617
5.37656  118.665
5.49448  117.276
5.61241  118.229
5.73034  117.028
5.84826  115.853
5.96619  117.707
6.08412  117.524
6.20204  116.403
6.31997  117.397
6.43789  117.056
6.55582  118.841
6.67375  118.17
6.79167  118.626
6.9096  118.996
7.02753  118.947
7.14545  118.716
7.26338  118.832
7.38131  120.154
7.49923  121.094
7.61716  122.813
7.73508  124.533
7.85301  133.932
7.97094  132.314
8.08886  131.913
8.20679  142.816
8.32472  164.232
8.44264  138.968
8.56057  136.034
8.6785  136.46
8.79642  139.168
8.91435  144.457
9.03227  147.246
9.1502  149.201
9.26813  153.372
9.38605  157.013
9.50398  162.993
9.62191  208.344
9.73983  166.451
9.85776  171.954
9.97568  182.229
10.0936  160.184
10.2115  152.481
10.3295  153.488
10.4474  150.651
10.5653  149.014
10.6832  149.969
10.8012  149.801
10.9191  152.434
11.037  153.08
11.1549  152.675
11.2729  151.748
11.3908  153.567
11.5087  156.728
11.6267  170.914
11.7446  185.602
11.8625  160.853
11.9804  159.452
12.0984  160.487
12.2163  162.013
12.3342  165.478
12.4521  169.368
12.5701  168.279
12.688  165.17
12.8059  164.717
12.9238  164.055
13.0418  167.189
13.1597  179.776
13.2776  201.099
13.3955  174.989
13.5135  171.583
13.6314  176.169
13.7493  172.797
13.8673  169.736
13.9852  178.33
14.1031  201.051
14.221  174.795
14.339  166.686
14.4569  164.582
14.5748  170.739
14.6927  170.497
14.8107  168.467
14.9286  164.383
15.0465  162.254
15.1644  162.996
15.2824  162.061
15.4003  162.892
15.5182  162.974
15.6361  164.29
15.7541  163.667
15.872  163.627
15.9899  163.983
16.1079  165.666
16.2258  166.931
16.3437  171.056
16.4616  170.502
16.5796  170.053
16.6975  170.788
16.8154  170.886
16.9333  168.538
17.0513  171.023
17.1692  174.643
17.2871  176.575
17.405  172.576
17.523  171.338
17.6409  170.96
17.7588  168.966
17.8767  169.148
17.9947  167.536
18.1126  166.952
18.2305  167.132
18.3485  166.799
18.4664  166.37
18.5843  167.117
18.7022  166.027
18.8202  167.389
18.9381  167.267
19.056  166.386
19.1739  167.746
19.2919  167.703
19.4098  168.832
19.5277  165.701
19.6456  164.149
19.7636  165.393
19.8815  166.913
19.9994  167.391
20.1173  169.33
20.2353  177.854
20.3532  179.579
20.4711  168.83
20.5891  167.773
20.707  168.624
20.8249  167.301
20.9428  169.262
21.0608  168.154
21.1787  168.027
21.2966  167.007
21.4145  168.225
21.5325  172.139
21.6504  177.101
21.7683  172.188
21.8862  170.8
22.0042  171.112
22.1221  173.937
22.24  177.451
22.358  183.878
22.4759  178.291
22.5938  174.462
22.7117  173.041
22.8297  172.504
22.9476  171.301
23.0655  171.944
23.1834  169.617
23.3014  170.822
23.4193  171.676
23.5372  174.129
23.6551  173.43
23.7731  175.051
23.891  176.491
24.0089  175.982
24.1268  175.955
24.2448  181.488
24.3627  183.723
24.4806  183.838
24.5986  178.951
24.7165  175.307
24.8344  175.668
24.9523  172.139
25.0703  172.243
25.1882  170.8
25.3061  169.384
25.424  169.089
25.542  168.477
25.6599  168.565
25.7778  167.5
25.8957  166.729
26.0137  167.362
26.1316  167.348
26.2495  168.049
26.3674  165.85
26.4854  166.759
26.6033  166.344
26.7212  165.557
26.8392  165.561
26.9571  165.44
27.075  165.187
27.1929  163.549
27.3109  164.015
27.4288  164.237
27.5467  163.158
27.6646  163.027
27.7826  163.35
27.9005  163.755
28.0184  163.547
28.1363  162.881
28.2543  164.662
28.3722  164.915
28.4901  163.062
28.608  161.552
28.726  161.78
28.8439  161.127
28.9618  160.714
29.0798  161.077
29.1977  160.915
29.3156  160.88
29.4335  161.654
29.5515  160.226
29.6694  160.041
29.7873  159.048
29.9052  156.778
30.0232  151.843
30.1411  145.449
30.259  132.547
30.3769  122.294
30.4949  115.888
30.6128  108.883
30.7307  102.146
30.8486  95.0043
30.9666  87.7707
31.0845  80.1236
31.2024  73.4772
31.3204  66.6783
31.4383  61.1589
31.5562  56.2985
31.6741  53.6504
31.7921  50.6294
31.91  50.1614
32.0279  46.1911
32.0869  48.8724

File: 045.xy
# == pyFAI calibration ==
# Distance Sample to Detector: 0.115075 m
# PONI: 5.477e-03, 4.716e-03 m
# Rotations: 0.004686 0.005536 0.000000 rad
#
# == Fit2d calibration ==
# Distance Sample-beamCenter: 115.078 mm
# Center: x=55.690, y=81.516 pix
# Tilt: 0.416 deg  TiltPlanRot: 130.247 deg
#
# Detector Detector	 Spline= None	 PixelSize= 7.500e-05, 7.500e-05 m
#    Detector has a mask: False
#    Detector has a dark current: False
#    detector has a flat field: False
#
# Wavelength: 4.833e-11 m
# Mask applied: None
# Dark current applied: None
# Flat field applied: None
# Polarization factor: None
# Normalization factor: None
#
# 2th_deg	 I
1.13121  35.7238
1.24914  79.5642
1.36706  102.535
1.48499  110.936
1.60291  119.4
1.72084  125.018
1.83877  129.259
1.95669  133.402
2.07462  140.792
2.19255  143.338
2.31047  144.94
2.4284  149.002
2.54633  149.728
2.66425  148.263
2.78218  146.37
2.9001  146.22
3.01803  144.317
3.13596  143.509
3.25388  143.786
3.37181  143.683
3.48974  140.519
3.60766  136.852
3.72559  138.152
3.84352  138.013
3.96144  137.634
4.07937  134.418
4.19729  133.01
4.31522  129.362
4.43315  126.879
4.55107  125.54
4.669  124.643
4.78693  124.937
4.90485  121.856
5.02278  120.567
5.14071  119.963
5.25863  118.23
5.37656  117.617
5.49448  118.219
5.61241  118.063
5.73034  119.544
5.84826  116.287
5.96619  116.777
6.08412  117.121
6.20204  117.196
6.31997  117.446
6.43789  118.719
6.55582  118.862
6.67375  118.604
6.79167  119.093
6.9096  118.209
7.02753  119.325
7.14545  119.718
7.26338  120.747
7.38131  120.657
7.49923  121.452
7.61716  122.097
7.73508  123.512
7.85301  125.424
7.97094  130.304
8.08886  138.271
8.20679  139.121
8.32472  161.475
8.44264  157.553
8.56057  140.684
8.6785  137.513
8.79642  138.927
8.91435  144.186
9.03227  146.662
9.1502  147.77
9.26813  152.237
9.38605  155.086
9.50398  157.231
9.62191  162.993
9.73983  197.742
9.85776  174.328
9.97568  182.715
10.0936  175.662
10.2115  157.265
10.3295  156.768
10.4474  151.657
10.5653  148.83
10.6832  147.896
10.8012  147.827
10.9191  148.952
11.037  151.627
11.1549  153.154
11.2729  150.405
11.3908  151.992
11.5087  154.674
11.6267  168.266
11.7446  193.56
11.8625  160.123
11.9804  159.272
12.0984  161.071
12.2163  163.332
12.3342  164.624
12.4521  169.72
12.5701  175.465
12.688  173.672
12.8059  172.357
12.9238  170.41
13.0418  172.795
13.1597  185.444
13.2776  212.801
13.3955  182.26
13.5135  171.587
13.6314  179.5
13.7493  174.297
13.8673  172.731
13.9852  176.982
14.1031  186.608
14.221  206.578
14.339  178.411
14.4569  169.011
14.5748  168.139
14.6927  172.725
14.8107  169.836
14.9286  167.564
15.0465  167.683
15.1644  166.494
15.2824  163.439
15.4003  163.792
15.5182  163.847
15.6361  164.75
15.7541  164.117
15.872  164.264
15.9899  165.039
16.1079  165.986
16.2258  167.074
16.3437  167.956
16.4616  175.474
16.5796  172.111
16.6975  168.811
16.8154  168.77
16.9333  169.255
17.0513  172.588
17.1692  175.482
17.2871  174.805
17.405  178.995
17.523  173.428
17.6409  171.12
17.7588  170.931
17.8767  171.425
17.9947  170.068
18.1126  168.966
18.2305  167.493
18.3485  168.377
18.4664  167.627
18.5843  166.755
18.7022  166.809
18.8202  165.741
18.9381  167.257
19.056  167.072
19.1739  166.959
19.2919  165.759
19.4098  168.749
19.5277  170.68
19.6456  168.838
19.7636  166.09
19.8815  166.76
19.9994  167.778
20.1173  170.327
20.2353  179.372
20.3532  183.755
20.4711  170.05
20.5891  167.817
20.707  167.448
20.8249  168.616
20.9428  169.175
21.0608  168.153
21.1787  168.8
21.2966  169.674
21.4145  170.046
21.5325  172.174
21.6504  172.634
21.7683  176.975
21.8862  174.815
22.0042  172.499
22.1221  172.663
22.24  174.779
22.358  179.903
22.4759  185.293
22.5938  180.746
22.7117  177.216
22.8297  173.288
22.9476  174.386
23.0655  174.187
23.1834  171.932
23.3014  172.2
23.4193  173.082
23.5372  174.186
23.6551  174.005
23.7731  175.401
23.891  178.351
24.0089  177.032
24.1268  176.714
24.2448  181.36
24.3627  182.495
24.4806  178.145
24.5986  180.37
24.7165  182.918
24.8344  177.24
24.9523  177.786
25.0703  174.967
25.1882  173.82
25.3061  172.387
25.424  170.599
25.542  169.698
25.6599  169.379
25.7778  169.255
25.8957  167.92
26.0137  167.966
26.1316  167.995
26.2495  168.631
26.3674  167.146
26.4854  167.358
26.6033  167.648
26.7212  166.684
26.8392  167.61
26.9571  166.653
27.075  165.799
27.1929  165.792
27.3109  165.229
27.4288  164.232
27.5467  164.701
27.6646  163.981
27.7826  164.066
27.9005  163.124
28.0184  163.881
28.1363  164.153
28.2543  163.704
28.3722  163.827
28.4901  164.929
28.608  165.391
28.726  165.155
28.8439  163.476
28.9618  162.332
29.0798  162.577
29.1977  160.668
29.3156  159.937
29.4335  161.341
29.5515  161.828
29.6694  159.868
29.7873  158.409
29.9052  157.119
30.0232  152.057
30.1411  144.69
30.259  133.454
30.3769  122.779
30.4949  115.883
30.6128  108.784
30.7307  102.194
30.8486  94.9105
30.9666  87.5841
31.0845  79.6328
31.2024  73.1271
31.3204  66.0496
31.4383  58.14
31.5562  51.8079
31.6741  46.7739
31.7921  40.4912
31.91  36.1008
32.0279  21.5559
32.0869  25.0139

File: 047.xy
# == pyFAI calibration ==
# Distance Sample to Detector: 0.115075 m
# PONI: 5.477e-03, 4.716e-03 m
# Rotations: 0.004686 0.005536 0.000000 rad
#
# == Fit2d calibration ==
# Distance Sample-beamCenter: 115.078 mm
# Center: x=55.690, y=81.516 pix
# Tilt: 0.416 deg  TiltPlanRot: 130.247 deg
#
# Detector Detector	 Spline= None	 PixelSize= 7.500e-05, 7.500e-05 m
#    Detector has a mask: False
#    Detector has a dark current: False
#    detector has a flat field: False
#
# Wavelength: 4.833e-11 m
# Mask applied: None
# Dark current applied: None
# Flat field applied: None
# Polarization factor: None
# Normalization factor: None
#
# 2th_deg	 I
1.13121  35.5462
1.24914  81.3173
1.36706  104.12
1.48499  115.48
1.60291  122.072
1.72084  128.41
1.83877  132.25
1.95669  136.487
2.07462  142.005
2.19255  146.951
2.31047  150.073
2.4284  151.276
2.54633  152.195
2.66425  151.121
2.78218  150.516
2.9001  148.488
3.01803  147.823
3.13596  146.323
3.25388  146.287
3.37181  146.477
3.48974  145.223
3.60766  146.277
3.72559  141.417
3.84352  145.237
3.96144  141.008
4.07937  137.578
4.19729  135.536
4.31522  132.386
4.43315  130.481
4.55107  128.693
4.669  128.205
4.78693  126.427
4.90485  125.638
5.02278  124.234
5.14071  123.914
5.25863  121.276
5.37656  120.712
5.49448  120.462
5.61241  119.65
5.73034  120.559
5.84826  119.041
5.96619  119.448
6.08412  120.242
6.20204  120.065
6.31997  120.29
6.43789  120.971
6.55582  121.987
6.67375  120.798
6.79167  122.497
6.9096  122.077
7.02753  122.256
7.14545  122.389
7.26338  123.142
7.38131  122.886
7.49923  124.663
7.61716  124.885
7.73508  126.169
7.85301  127.441
7.97094  131.66
8.08886  140.836
8.20679  142.613
8.32472  160.061
8.44264  169.017
8.56057  148.254
8.6785  141.409
8.79642  142.315
8.91435  146.773
9.03227  149.402
9.1502  152.467
9.26813  153.341
9.38605  158.654
9.50398  160.653
9.62191  165.733
9.73983  184.243
9.85776  195.441
9.97568  182.982
10.0936  187.563
10.2115  163.597
10.3295  163.468
10.4474  156.382
10.5653  152.746
10.6832  151.035
10.8012  151.84
10.9191  152.738
11.037  155.041
11.1549  155.251
11.2729  154.315
11.3908  153.998
11.5087  156.256
11.6267  170.377
11.7446  192.105
11.8625  162.531
11.9804  162.366
12.0984  161.88
12.2163  165.43
12.3342  169.075
12.4521  173.357
12.5701  178.968
12.688  179.521
12.8059  178.668
12.9238  178.243
13.0418  179.441
13.1597  190.553
13.2776  219.522
13.3955  189.751
13.5135  177.622
13.6314  184.758
13.7493  180.932
13.8673  176.603
13.9852  179.267
14.1031  189.389
14.221  219.445
14.339  191.179
14.4569  175.869
14.5748  173.035
14.6927  176.939
14.8107  175.966
14.9286  171.133
15.0465  171.765
15.1644  173.044
15.2824  169.443
15.4003  168.547
15.5182  167.952
15.6361  169.551
15.7541  168.444
15.872  168.473
15.9899  168.774
16.1079  169.814
16.2258  170.725
16.3437  171.746
16.4616  177.461
16.5796  179.531
16.6975  172.922
16.8154  172.989
16.9333  172.626
17.0513  174.915
17.1692  179.76
17.2871  179.26
17.405  183.685
17.523  178.834
17.6409  175.415
17.7588  175.062
17.8767  175.581
17.9947  174.543
18.1126  173.405
18.2305  171.886
18.3485  171.545
18.4664  171.984
18.5843  170.682
18.7022  170.866
18.8202  170.542
18.9381  169.804
19.056  170.468
19.1739  171.981
19.2919  169.049
19.4098  171.244
19.5277  172.839
19.6456  174.133
19.7636  171.72
19.8815  171.354
19.9994  171.919
20.1173  175.864
20.2353  183.784
20.3532  189.482
20.4711  173.86
20.5891  170.879
20.707  171.472
20.8249  172.025
20.9428  173.116
21.0608  172.218
21.1787  172.695
21.2966  173.274
21.4145  173.862
21.5325  176.01
21.6504  176.834
21.7683  179.26
21.8862  182.568
22.0042  177.299
22.1221  175.784
22.24  177.439
22.358  181.888
22.4759  187.857
22.5938  190.331
22.7117  184.568
22.8297  179.728
22.9476  177.46
23.0655  179.387
23.1834  178.425
23.3014  176.486
23.4193  176.582
23.5372  177.836
23.6551  177.379
23.7731  178.438
23.891  182.491
24.0089  180.996
24.1268  179.91
24.2448  184.873
24.3627  188.534
24.4806  182.097
24.5986  180.904
24.7165  187.299
24.8344  184.895
24.9523  181.523
25.0703  181.112
25.1882  177.783
25.3061  177.044
25.424  175.213
25.542  174.356
25.6599  173.746
25.7778  172.697
25.8957  171.751
26.0137  172.893
26.1316  173.179
26.2495  171.648
26.3674  171.867
26.4854  170.871
26.6033  171.296
26.7212  170.81
26.8392  170.275
26.9571  169.215
27.075  169.66
27.1929  169.085
27.3109  169.95
27.4288  169.426
27.5467  168.84
27.6646  167.925
27.7826  167.998
27.9005  167.068
28.0184  167.841
28.1363  166.314
28.2543  166.995
28.3722  167.525
28.4901  166.669
28.608  168.318
28.726  169.717
28.8439  167.073
28.9618  167.596
29.0798  164.735
29.1977  164.207
29.3156  164.953
29.4335  163.657
29.5515  163.41
29.6694  163.348
29.7873  162.201
29.9052  162.008
30.0232  155.295
30.1411  148.818
30.259  135.94
30.3769  124.757
30.4949  118.893
30.6128  111.239
30.7307  103.078
30.8486  96.2131
30.9666  88.2031
31.0845  80.6945
31.2024  74.0875
31.3204  67.4234
31.4383  58.7658
31.5562  52.4371
31.6741  46.8473
31.7921  41.0537
31.91  32.5449
32.0279  27.7147
32.0869  21.404

File: 050.xy
# == pyFAI calibration ==
# Distance Sample to Detector: 0.115075 m
# PONI: 5.477e-03, 4.716e-03 m
# Rotations: 0.004686 0.005536 0.000000 rad
#
# == Fit2d calibration ==
# Distance Sample-beamCenter: 115.078 mm
# Center: x=55.690, y=81.516 pix
# Tilt: 0.416 deg  TiltPlanRot: 130.247 deg
#
# Detector Detector	 Spline= None	 PixelSize= 7.500e-05, 7.500e-05 m
#    Detector has a mask: False
#    Detector has a dark current: False
#    detector has a flat field: False
#
# Wavelength: 4.833e-11 m
# Mask applied: None
# Dark current applied: None
# Flat field applied: None
# Polarization factor: None
# Normalization factor: None
#
# 2th_deg	 I
1.13121  34.1585
1.24914  84.9085
1.36706  110.546
1.48499  121.107
1.60291  128.695
1.72084  133.262
1.83877  138.445
1.95669  143.345
2.07462  150.159
2.19255  154.108
2.31047  156.995
2.4284  157.88
2.54633  158.289
2.66425  156.889
2.78218  157.813
2.9001  156.496
3.01803  153.524
3.13596  153.516
3.25388  152.932
3.37181  153.349
3.48974  151.555
3.60766  153.577
3.72559  147.391
3.84352  151.497
3.96144  147.648
4.07937  144.186
4.19729  140.853
4.31522  138.03
4.43315  136.336
4.55107  134.69
4.669  134.006
4.78693  132.41
4.90485  130.788
5.02278  129.583
5.14071  129.176
5.25863  126.261
5.37656  126.673
5.49448  125.873
5.61241  126.272
5.73034  126.593
5.84826  124.724
5.96619  125.585
6.08412  125.025
6.20204  126.146
6.31997  124.348
6.43789  125.861
6.55582  126.656
6.67375  126.532
6.79167  127.726
6.9096  127.737
7.02753  127.143
7.14545  128.29
7.26338  128.77
7.38131  129.611
7.49923  129.915
7.61716  131.25
7.73508  132.448
7.85301  133.424
7.97094  136.384
8.08886  142.856
8.20679  151.128
8.32472  163.416
8.44264  183.668
8.56057  158.418
8.6785  147.805
8.79642  148.926
8.91435  152.984
9.03227  157.271
9.1502  159.051
9.26813  161.744
9.38605  165.084
9.50398  167.402
9.62191  170.627
9.73983  182.18
9.85776  215.97
9.97568  189.143
10.0936  201.603
10.2115  174.534
10.3295  170.48
10.4474  161.709
10.5653  157.519
10.6832  156.179
10.8012  155.767
10.9191  156.705
11.037  157.321
11.1549  158.883
11.2729  157.484
11.3908  156.447
11.5087  158.595
11.6267  171.293
11.7446  195.192
11.8625  160.54
11.9804  159.327
12.0984  159.013
12.2163  161.891
12.3342  163.179
12.4521  166.759
12.5701  171.51
12.688  172.513
12.8059  172.043
12.9238  171.948
13.0418  173.654
13.1597  186.119
13.2776  218.663
13.3955  187.376
13.5135  174.43
13.6314  180.121
13.7493  179.402
13.8673  175.353
13.9852  177.755
14.1031  188.147
14.221  221.621
14.339  204.114
14.4569  180.845
14.5748  176.398
14.6927  178.896
14.8107  181.225
14.9286  176.218
15.0465  174.583
15.1644  175.65
15.2824  174.542
15.4003  172.276
15.5182  173.026
15.6361  173.898
15.7541  172
15.872  172.899
15.9899  174.336
16.1079  175.007
16.2258  176.55
16.3437  178.209
16.4616  182.209
16.5796  186.924
16.6975  179.934
16.8154  178.27
16.9333  178.563
17.0513  180.733
17.1692  183.645
17.2871  186.732
17.405  188.655
17.523  187.413
17.6409  182.311
17.7588  182.019
17.8767  181.505
17.9947  182.476
18.1126  181.059
18.2305  179.901
18.3485  178.557
18.4664  178.752
18.5843  176.876
18.7022  176.651
18.8202  177.128
18.9381  176.844
19.056  176.696
19.1739  177.88
19.2919  177.229
19.4098  176.439
19.5277  179.549
19.6456  179.901
19.7636  179.938
19.8815  177.405
19.9994  178.884
20.1173  181.892
20.2353  189.675
20.3532  196.743
20.4711  181.258
20.5891  177.481
20.707  177.385
20.8249  177.335
20.9428  179.517
21.0608  179.567
21.1787  177.094
21.2966  177.582
21.4145  177.536
21.5325  179.882
21.6504  180.997
21.7683  184.651
21.8862  189.091
22.0042  184.118
22.1221  181.578
22.24  182.891
22.358  186.546
22.4759  190.761
22.5938  197.485
22.7117  190.795
22.8297  185.403
22.9476  184.085
23.0655  184.22
23.1834  184.479
23.3014  183.558
23.4193  184.388
23.5372  184.221
23.6551  184.07
23.7731  184.713
23.891  189.98
24.0089  188.984
24.1268  188.409
24.2448  194.162
24.3627  198.363
24.4806  193.509
24.5986  192.112
24.7165  194.377
24.8344  195.869
24.9523  190.556
25.0703  190.974
25.1882  189.253
25.3061  187.523
25.424  187.958
25.542  187.679
25.6599  185.684
25.7778  185.587
25.8957  183.524
26.0137  182.521
26.1316  181.475
26.2495  181.766
26.3674  181.302
26.4854  180.046
26.6033  180.106
26.7212  179.606
26.8392  178.88
26.9571  178.667
27.075  178.589
27.1929  177.838
27.3109  178.015
27.4288  177.13
27.5467  175.583
27.6646  176.603
27.7826  175.047
27.9005  174.762
28.0184  173.885
28.1363  174.272
28.2543  174.221
28.3722  174.339
28.4901  174.029
28.608  175.194
28.726  176.426
28.8439  174.439
28.9618  174.957
29.0798  172.645
29.1977  171.443
29.3156  171.666
29.4335  171.525
29.5515  170.052
29.6694  169.124
29.7873  167.687
29.9052  166.679
30.0232  161.2
30.1411  152.985
30.259  141.866
30.3769  128.877
30.4949  122.56
30.6128  115.313
30.7307  108.434
30.8486  98.9498
30.9666  91.4162
31.0845  84.2511
31.2024  76.1043
31.3204  68.5302
31.4383  61.19
31.5562  54.1264
31.6741  47.8855
31.7921  42.0707
31.91  32.8044
32.0279  27.7147
32.0869  15.2782

File: 056.xy
# == pyFAI calibration ==
# Distance Sample to Detector: 0.115075 m
# PONI: 5.477e-03, 4.716e-03 m
# Rotations: 0.004686 0.005536 0.000000 rad
#
# == Fit2d calibration ==
# Distance Sample-beamCenter: 115.078 mm
# Center: x=55.690, y=81.516 pix
# Tilt: 0.416 deg  TiltPlanRot: 130.247 deg
#
# Detector Detector	 Spline= None	 PixelSize= 7.500e-05, 7.500e-05 m
#    Detector has a mask: False
#    Detector has a dark current: False
#    detector has a flat field: False
#
# Wavelength: 4.833e-11 m
# Mask applied: None
# Dark current applied: None
# Flat field applied: None
# Polarization factor: None
# Normalization factor: None
#
# 2th_deg	 I
1.13121  64.9558
1.24914  142.907
1.36706  185.078
1.48499  202.561
1.60291  214.603
1.72084  228.945
1.83877  234.597
1.95669  242.935
2.07462  253.942
2.19255  259.896
2.31047  266.448
2.4284  271.519
2.54633  269.968
2.66425  269.659
2.78218  268.1
2.9001  265.693
3.01803  262.166
3.13596  261.427
3.25388  261.887
3.37181  261.573
3.48974  259.569
3.60766  256.799
3.72559  252.165
3.84352  261.65
3.96144  253.656
4.07937  247.416
4.19729  241.034
4.31522  238.349
4.43315  232.194
4.55107  229.023
4.669  227.462
4.78693  227.869
4.90485  223.942
5.02278  221.76
5.14071  221.163
5.25863  218.896
5.37656  216.25
5.49448  217.04
5.61241  215.936
5.73034  217.5
5.84826  214.848
5.96619  215.867
6.08412  215.786
6.20204  214.721
6.31997  214.832
6.43789  215.718
6.55582  217.625
6.67375  216.875
6.79167  218.314
6.9096  219.991
7.02753  220.068
7.14545  220.534
7.26338  221.971
7.38131  221.965
7.49923  224.501
7.61716  225.951
7.73508  226.863
7.85301  228.705
7.97094  230.783
8.08886  237.883
8.20679  248.193
8.32472  272.832
8.44264  318.292
8.56057  278.748
8.6785  252.464
8.79642  257.495
8.91435  263.804
9.03227  269.397
9.1502  271.339
9.26813  277.148
9.38605  280.081
9.50398  287.288
9.62191  290.325
9.73983  296.792
9.85776  317.407
9.97568  361.759
10.0936  335.186
10.2115  323.01
10.3295  289.922
10.4474  286.129
10.5653  274.246
10.6832  269.445
10.8012  267.848
10.9191  266.608
11.037  269.263
11.1549  271.87
11.2729  271.686
11.3908  270.957
11.5087  270.839
11.6267  294.404
11.7446  332.293
11.8625  274.479
11.9804  269.055
12.0984  268.713
12.2163  271.944
12.3342  274.664
12.4521  279.137
12.5701  287.518
12.688  292.251
12.8059  292.657
12.9238  292.498
13.0418  294.541
13.1597  312.227
13.2776  364.397
13.3955  327.924
13.5135  304.289
13.6314  304.109
13.7493  316.351
13.8673  304.23
13.9852  301.387
14.1031  307.387
14.221  327.114
14.339  392.25
14.4569  341.209
14.5748  314.329
14.6927  306.225
14.8107  309.234
14.9286  316.632
15.0465  302.099
15.1644  301.735
15.2824  302.539
15.4003  304.038
15.5182  301.714
15.6361  300.749
15.7541  299.305
15.872  298.983
15.9899  300.947
16.1079  301.375
16.2258  302.759
16.3437  307.394
16.4616  309.954
16.5796  312.964
16.6975  326.241
16.8154  310.22
16.9333  306.965
17.0513  309.7
17.1692  311.841
17.2871  314.29
17.405  318.161
17.523  328.884
17.6409  327.054
17.7588  315.29
17.8767  312.138
17.9947  314.217
18.1126  313.798
18.2305  313.113
18.3485  310.915
18.4664  307.553
18.5843  306.558
18.7022  304.584
18.8202  306.2
18.9381  304.983
19.056  306.544
19.1739  305.605
19.2919  305.988
19.4098  305.954
19.5277  305.376
19.6456  308.543
19.7636  310.825
19.8815  311.423
19.9994  311.534
20.1173  312.188
20.2353  326.079
20.3532  346.426
20.4711  317.47
20.5891  305.48
20.707  304.345
20.8249  304.077
20.9428  306.011
21.0608  309.362
21.1787  310.25
21.2966  307.709
21.4145  306.692
21.5325  306.866
21.6504  306.499
21.7683  311.035
21.8862  315.51
22.0042  325.404
22.1221  321.867
22.24  313.641
22.358  316.891
22.4759  317.655
22.5938  328.244
22.7117  344.735
22.8297  340.257
22.9476  323.797
23.0655  319.735
23.1834  320.785
23.3014  321.586
23.4193  319.835
23.5372  321.493
23.6551  316.962
23.7731  318.133
23.891  324.642
24.0089  325.787
24.1268  323.427
24.2448  328.885
24.3627  334.868
24.4806  327.819
24.5986  325.262
24.7165  327.106
24.8344  333.168
24.9523  341.004
25.0703  332.174
25.1882  331.313
25.3061  328.802
25.424  321.47
25.542  321.071
25.6599  320.229
25.7778  320.41
25.8957  322.098
26.0137  322.281
26.1316  327.45
26.2495  322.589
26.3674  318.501
26.4854  317.379
26.6033  316.199
26.7212  314.132
26.8392  313.819
26.9571  308.934
27.075  309.26
27.1929  308.673
27.3109  308.359
27.4288  307.86
27.5467  308.153
27.6646  307.194
27.7826  305.282
27.9005  303.755
28.0184  301.799
28.1363  302.284
28.2543  301.518
28.3722  301.302
28.4901  300.114
28.608  300.353
28.726  301.271
28.8439  303.786
28.9618  305.797
29.0798  300.741
29.1977  299.773
29.3156  299.244
29.4335  297.725
29.5515  296.585
29.6694  293.345
29.7873  291.775
29.9052  286.359
30.0232  278.444
30.1411  266.273
30.259  245.529
30.3769  223.823
30.4949  213.545
30.6128  199.976
30.7307  188.733
30.8486  175.385
30.9666  161.334
31.0845  149.243
31.2024  135.73
31.3204  123.353
31.4383  109.61
31.5562  98.3414
31.6741  87.2306
31.7921  75.5393
31.91  61.8323
32.0279  43.1117
32.0869  42.4297