Folder: LiYbSe2_HP/Figure1_XRD (part 3)

File: 095.xy
# == pyFAI calibration ==
# Distance Sample to Detector: 0.115075 m
# PONI: 5.477e-03, 4.716e-03 m
# Rotations: 0.004686 0.005536 0.000000 rad
#
# == Fit2d calibration ==
# Distance Sample-beamCenter: 115.078 mm
# Center: x=55.690, y=81.516 pix
# Tilt: 0.416 deg  TiltPlanRot: 130.247 deg
#
# Detector Detector	 Spline= None	 PixelSize= 7.500e-05, 7.500e-05 m
#    Detector has a mask: False
#    Detector has a dark current: False
#    detector has a flat field: False
#
# Wavelength: 4.833e-11 m
# Mask applied: None
# Dark current applied: None
# Flat field applied: None
# Polarization factor: None
# Normalization factor: None
#
# 2th_deg	 I
1.13121  68.5107
1.24914  140.239
1.36706  181.41
1.48499  201.843
1.60291  215.374
1.72084  228.948
1.83877  236.975
1.95669  246.234
2.07462  257.368
2.19255  267.434
2.31047  272.385
2.4284  277.831
2.54633  276.137
2.66425  275.876
2.78218  273.925
2.9001  271.606
3.01803  268.875
3.13596  267.467
3.25388  267.731
3.37181  266.672
3.48974  265.134
3.60766  262.261
3.72559  256.896
3.84352  261.871
3.96144  270.681
4.07937  259.871
4.19729  252.743
4.31522  247.176
4.43315  245.599
4.55107  241.055
4.669  238.116
4.78693  237.446
4.90485  236.278
5.02278  233.193
5.14071  231.556
5.25863  229.721
5.37656  228.192
5.49448  226.981
5.61241  226.664
5.73034  226.444
5.84826  228.057
5.96619  227.273
6.08412  226.535
6.20204  224.362
6.31997  225.943
6.43789  227.777
6.55582  227.193
6.67375  227.669
6.79167  229.164
6.9096  229.243
7.02753  231.151
7.14545  232.969
7.26338  232.652
7.38131  233.101
7.49923  236.258
7.61716  237.321
7.73508  239.003
7.85301  239.802
7.97094  242.442
8.08886  245.061
8.20679  248.088
8.32472  250.015
8.44264  258.831
8.56057  287.229
8.6785  347.52
8.79642  336.373
8.91435  292.783
9.03227  281.834
9.1502  281.057
9.26813  285.136
9.38605  290.643
9.50398  293.76
9.62191  296.661
9.73983  297.623
9.85776  296.966
9.97568  296.374
10.0936  295.116
10.2115  309.09
10.3295  419.564
10.4474  391.451
10.5653  338.359
10.6832  310.841
10.8012  293.617
10.9191  285.513
11.037  283.124
11.1549  281.258
11.2729  280.356
11.3908  284.261
11.5087  289.805
11.6267  319.526
11.7446  391.542
11.8625  316.519
11.9804  286.716
12.0984  283.812
12.2163  283.407
12.3342  283.558
12.4521  286.774
12.5701  288.827
12.688  290.98
12.8059  291.99
12.9238  295.441
13.0418  302.671
13.1597  320.644
13.2776  379.866
13.3955  400.138
13.5135  337.402
13.6314  313.327
13.7493  308.476
13.8673  337.358
13.9852  340.429
14.1031  328.672
14.221  341.189
14.339  328.812
14.4569  326.598
14.5748  333.634
14.6927  364.188
14.8107  387.387
14.9286  353.701
15.0465  335.55
15.1644  338.241
15.2824  345.356
15.4003  336.449
15.5182  325.452
15.6361  322.047
15.7541  319.831
15.872  320.879
15.9899  324.089
16.1079  325.892
16.2258  327.8
16.3437  327.172
16.4616  324.576
16.5796  323.156
16.6975  321.554
16.8154  323.691
16.9333  323.71
17.0513  330.365
17.1692  334.424
17.2871  329.957
17.405  326.9
17.523  324.118
17.6409  324.679
17.7588  323.121
17.8767  326.786
17.9947  332.708
18.1126  338.702
18.2305  335.21
18.3485  333.773
18.4664  334.805
18.5843  332.933
18.7022  330.089
18.8202  329.558
18.9381  326.055
19.056  324.248
19.1739  322.666
19.2919  321.339
19.4098  319.718
19.5277  320.647
19.6456  319.646
19.7636  319.766
19.8815  323.671
19.9994  321.416
20.1173  325.887
20.2353  341.602
20.3532  379.459
20.4711  363.861
20.5891  334.922
20.707  330.256
20.8249  331.736
20.9428  328.761
21.0608  326.107
21.1787  323.923
21.2966  322.237
21.4145  321.531
21.5325  323.486
21.6504  323.174
21.7683  326.218
21.8862  328.161
22.0042  327.934
22.1221  326.246
22.24  324.709
22.358  334.066
22.4759  336.985
22.5938  340.516
22.7117  343.939
22.8297  337.997
22.9476  334.537
23.0655  334.77
23.1834  337.151
23.3014  347.141
23.4193  364.787
23.5372  367.746
23.6551  353.587
23.7731  344.253
23.891  343.781
24.0089  353.554
24.1268  355.261
24.2448  349.268
24.3627  357.292
24.4806  359.404
24.5986  341.034
24.7165  331.61
24.8344  330.737
24.9523  330.487
25.0703  330.694
25.1882  330.834
25.3061  331.952
25.424  336.277
25.542  339.727
25.6599  344.582
25.7778  345.659
25.8957  343.143
26.0137  338.629
26.1316  334.573
26.2495  330.963
26.3674  330.856
26.4854  332.445
26.6033  337.723
26.7212  351.73
26.8392  339.294
26.9571  330.923
27.075  327.927
27.1929  327.381
27.3109  326.563
27.4288  328.496
27.5467  326.717
27.6646  328.614
27.7826  340.444
27.9005  334.61
28.0184  330.742
28.1363  333.951
28.2543  325.879
28.3722  323.314
28.4901  319.814
28.608  320.88
28.726  321.839
28.8439  316.863
28.9618  316.989
29.0798  315.321
29.1977  314.595
29.3156  314.162
29.4335  313.871
29.5515  314.567
29.6694  315.464
29.7873  312.646
29.9052  304.237
30.0232  290.847
30.1411  276.361
30.259  251.868
30.3769  234.324
30.4949  223.274
30.6128  210.292
30.7307  197.407
30.8486  181.469
30.9666  168.343
31.0845  152.706
31.2024  140.719
31.3204  127.078
31.4383  114.165
31.5562  100.047
31.6741  88.8036
31.7921  78.4681
31.91  64.9837
32.0279  55.4294
32.0869  52.4413

File: P_V.dat
# Pressure (GPa), Volume (Angstrom^3)
2.5, 1385.902
4.5, 1355.736
5.0, 1343.188
5.1, 1337.024
7.1, 1313.073
9.2, 1287.981
9.6, 1280.405
9.8, 1276.286
11.9, 1251.020
13.8, 1225.300
15.3, 1205.508